USUBJID,SITEID,SEX,AESEQ,ASTDY,AENDY,AETERM,AESEV,AESER
SUBJ-01,01,F,1,5,12,Headache,MILD,N
SUBJ-01,01,F,2,20,25,Nausea,MODERATE,Y
SUBJ-02,01,M,1,2,30,Fatigue,SEVERE,N
SUBJ-03,02,F,1,8,,Rash,MILD,N
SUBJ-04,02,M,1,15,18,Dizziness,,N
SUBJ-05,02,M,,,,,,
SUBJ-06,03,F,1,3,10,Insomnia,MODERATE,Y
SUBJ-07,03,M,1,UNK,9,Cough,MILD,N
SUBJ-07,03,M,2,11,14,Fever,MILD,N
SUBJ-08,03,M,1,4,6,   ,MILD,N
