USUBJID,ARM,SEX,RACE,AEBODSYS,AEDECOD,AESEV,AESER,AEREL,AEOUT
A1,A,F,WHITE,Cardiac disorders,Palpitations,MILD,N,NOT RELATED,RECOVERED
A1,A,F,WHITE,Cardiac disorders,Palpitations,MODERATE,Y,PROBABLY RELATED,RECOVERED
A2,A,M,BLACK,Cardiac disorders,Arrhythmia,SEVERE,N,NOT RELATED,RESOLVED
A3,A,F,WHITE,Gastrointestinal disorders,Nausea,MILD,N,UNLIKELY RELATED,RECOVERED
A4,A,M,WHITE,,,,,,
B1,B,F,BLACK,Cardiac disorders,Palpitations,MILD,N,NOT RELATED,RECOVERED
B2,B,F,WHITE,NA,NA,NA,NA,NA,NA
B3,B,M,BLACK,Gastrointestinal disorders,Nausea,MODERATE,Y,PROBABLY RELATED,RESOLVED
C1,C,F,WHITE,Gastrointestinal disorders,Vomiting,MILD,N,NOT RELATED,RECOVERED
C2,C,M,BLACK,,,,,,
